# wavelength[angstrom]  transmittance
 9000.0  0.0012
 9000.5  0.0009
 9001.0  0.0008
 9001.5  0.0008
 9002.0  0.0009
 9002.5  0.0010
 9003.0  0.0009
 9003.5  0.0008
 9004.0  0.0009
 9004.5  0.0010
 9005.0  0.0012
 9005.5  0.0010
 9006.0  0.0010
 9006.5  0.0010
 9007.0  0.0012
 9007.5  0.0014
 9008.0  0.0012
 9008.5  0.0010
 9009.0  0.0010
 9009.5  0.0012
 9010.0  0.0014
 9010.5  0.0012
 9011.0  0.0011
 9011.5  0.0012
 9012.0  0.0014
 9012.5  0.0016
 9013.0  0.0013
 9013.5  0.0012
 9014.0  0.0011
 9014.5  0.0012
 9015.0  0.0014
 9015.5  0.0012
 9016.0  0.0011
 9016.5  0.0012
 9017.0  0.0013
 9017.5  0.0015
 9018.0  0.0013
 9018.5  0.0011
 9019.0  0.0011
 9019.5  0.0013
 9020.0  0.0015
 9020.5  0.0012
 9021.0  0.0010
 9021.5  0.0010
 9022.0  0.0012
 9022.5  0.0015
 9023.0  0.0014
 9023.5  0.0014
 9024.0  0.0015
 9024.5  0.0017
 9025.0  0.0021
 9025.5  0.0018
 9026.0  0.0016
 9026.5  0.0015
 9027.0  0.0014
 9027.5  0.0015
 9028.0  0.0014
 9028.5  0.0014
 9029.0  0.0015
 9029.5  0.0017
 9030.0  0.0020
 9030.5  0.0017
 9031.0  0.0015
 9031.5  0.0014
 9032.0  0.0015
 9032.5  0.0016
 9033.0  0.0014
 9033.5  0.0013
 9034.0  0.0013
 9034.5  0.0015
 9035.0  0.0017
 9035.5  0.0014
 9036.0  0.0013
 9036.5  0.0014
 9037.0  0.0015
 9037.5  0.0018
 9038.0  0.0016
 9038.5  0.0014
 9039.0  0.0015
 9039.5  0.0016
 9040.0  0.0019
 9040.5  0.0017
 9041.0  0.0016
 9041.5  0.0016
 9042.0  0.0018
 9042.5  0.0020
 9043.0  0.0018
 9043.5  0.0017
 9044.0  0.0017
 9044.5  0.0018
 9045.0  0.0020
 9045.5  0.0017
 9046.0  0.0016
 9046.5  0.0015
 9047.0  0.0016
 9047.5  0.0019
 9048.0  0.0017
 9048.5  0.0017
 9049.0  0.0017
 9049.5  0.0019
 9050.0  0.0022
 9050.5  0.0020
 9051.0  0.0019
 9051.5  0.0019
 9052.0  0.0020
 9052.5  0.0022
 9053.0  0.0020
 9053.5  0.0018
 9054.0  0.0016
 9054.5  0.0016
 9055.0  0.0017
 9055.5  0.0016
 9056.0  0.0016
 9056.5  0.0017
 9057.0  0.0019
 9057.5  0.0022
 9058.0  0.0021
 9058.5  0.0021
 9059.0  0.0022
 9059.5  0.0024
 9060.0  0.0027
 9060.5  0.0026
 9061.0  0.0026
 9061.5  0.0027
 9062.0  0.0028
 9062.5  0.0029
 9063.0  0.0028
 9063.5  0.0028
 9064.0  0.0028
 9064.5  0.0029
 9065.0  0.0032
 9065.5  0.0030
 9066.0  0.0029
 9066.5  0.0028
 9067.0  0.0029
 9067.5  0.0030
 9068.0  0.0030
 9068.5  0.0030
 9069.0  0.0032
 9069.5  0.0034
 9070.0  0.0036
 9070.5  0.0034
 9071.0  0.0033
 9071.5  0.0033
 9072.0  0.0033
 9072.5  0.0034
 9073.0  0.0034
 9073.5  0.0034
 9074.0  0.0037
 9074.5  0.0040
 9075.0  0.0043
 9075.5  0.0042
 9076.0  0.0041
 9076.5  0.0042
 9077.0  0.0043
 9077.5  0.0045
 9078.0  0.0045
 9078.5  0.0045
 9079.0  0.0047
 9079.5  0.0050
 9080.0  0.0054
 9080.5  0.0055
 9081.0  0.0057
 9081.5  0.0061
 9082.0  0.0065
 9082.5  0.0070
 9083.0  0.0070
 9083.5  0.0071
 9084.0  0.0072
 9084.5  0.0074
 9085.0  0.0077
 9085.5  0.0078
 9086.0  0.0079
 9086.5  0.0080
 9087.0  0.0082
 9087.5  0.0084
 9088.0  0.0088
 9088.5  0.0092
 9089.0  0.0096
 9089.5  0.0101
 9090.0  0.0106
 9090.5  0.0110
 9091.0  0.0115
 9091.5  0.0120
 9092.0  0.0126
 9092.5  0.0132
 9093.0  0.0137
 9093.5  0.0143
 9094.0  0.0148
 9094.5  0.0154
 9095.0  0.0160
 9095.5  0.0166
 9096.0  0.0172
 9096.5  0.0177
 9097.0  0.0183
 9097.5  0.0189
 9098.0  0.0197
 9098.5  0.0205
 9099.0  0.0213
 9099.5  0.0221
 9100.0  0.0230
 9100.5  0.0240
 9101.0  0.0252
 9101.5  0.0263
 9102.0  0.0275
 9102.5  0.0286
 9103.0  0.0297
 9103.5  0.0309
 9104.0  0.0320
 9104.5  0.0331
 9105.0  0.0343
 9105.5  0.0360
 9106.0  0.0376
 9106.5  0.0393
 9107.0  0.0410
 9107.5  0.0427
 9108.0  0.0447
 9108.5  0.0467
 9109.0  0.0488
 9109.5  0.0508
 9110.0  0.0528
 9110.5  0.0553
 9111.0  0.0578
 9111.5  0.0602
 9112.0  0.0627
 9112.5  0.0652
 9113.0  0.0682
 9113.5  0.0713
 9114.0  0.0743
 9114.5  0.0774
 9115.0  0.0804
 9115.5  0.0839
 9116.0  0.0873
 9116.5  0.0907
 9117.0  0.0942
 9117.5  0.0976
 9118.0  0.1018
 9118.5  0.1060
 9119.0  0.1102
 9119.5  0.1144
 9120.0  0.1186
 9120.5  0.1234
 9121.0  0.1282
 9121.5  0.1331
 9122.0  0.1379
 9122.5  0.1427
 9123.0  0.1480
 9123.5  0.1533
 9124.0  0.1585
 9124.5  0.1638
 9125.0  0.1690
 9125.5  0.1751
 9126.0  0.1812
 9126.5  0.1872
 9127.0  0.1933
 9127.5  0.1994
 9128.0  0.2057
 9128.5  0.2119
 9129.0  0.2182
 9129.5  0.2244
 9130.0  0.2307
 9130.5  0.2376
 9131.0  0.2445
 9131.5  0.2514
 9132.0  0.2582
 9132.5  0.2651
 9133.0  0.2722
 9133.5  0.2794
 9134.0  0.2865
 9134.5  0.2936
 9135.0  0.3007
 9135.5  0.3080
 9136.0  0.3154
 9136.5  0.3228
 9137.0  0.3302
 9137.5  0.3376
 9138.0  0.3448
 9138.5  0.3520
 9139.0  0.3591
 9139.5  0.3663
 9140.0  0.3734
 9140.5  0.3808
 9141.0  0.3882
 9141.5  0.3956
 9142.0  0.4030
 9142.5  0.4105
 9143.0  0.4175
 9143.5  0.4246
 9144.0  0.4316
 9144.5  0.4386
 9145.0  0.4456
 9145.5  0.4529
 9146.0  0.4603
 9146.5  0.4677
 9147.0  0.4751
 9147.5  0.4825
 9148.0  0.4900
 9148.5  0.4975
 9149.0  0.5050
 9149.5  0.5125
 9150.0  0.5201
 9150.5  0.5268
 9151.0  0.5336
 9151.5  0.5403
 9152.0  0.5470
 9152.5  0.5537
 9153.0  0.5616
 9153.5  0.5695
 9154.0  0.5775
 9154.5  0.5854
 9155.0  0.5934
 9155.5  0.5997
 9156.0  0.6059
 9156.5  0.6122
 9157.0  0.6185
 9157.5  0.6248
 9158.0  0.6321
 9158.5  0.6395
 9159.0  0.6468
 9159.5  0.6542
 9160.0  0.6615
 9160.5  0.6683
 9161.0  0.6750
 9161.5  0.6818
 9162.0  0.6886
 9162.5  0.6955
 9163.0  0.7013
 9163.5  0.7072
 9164.0  0.7131
 9164.5  0.7189
 9165.0  0.7248
 9165.5  0.7310
 9166.0  0.7372
 9166.5  0.7435
 9167.0  0.7498
 9167.5  0.7561
 9168.0  0.7612
 9168.5  0.7664
 9169.0  0.7715
 9169.5  0.7766
 9170.0  0.7817
 9170.5  0.7872
 9171.0  0.7927
 9171.5  0.7982
 9172.0  0.8037
 9172.5  0.8093
 9173.0  0.8143
 9173.5  0.8194
 9174.0  0.8244
 9174.5  0.8294
 9175.0  0.8345
 9175.5  0.8392
 9176.0  0.8440
 9176.5  0.8487
 9177.0  0.8535
 9177.5  0.8583
 9178.0  0.8619
 9178.5  0.8655
 9179.0  0.8691
 9179.5  0.8728
 9180.0  0.8764
 9180.5  0.8786
 9181.0  0.8808
 9181.5  0.8830
 9182.0  0.8851
 9182.5  0.8873
 9183.0  0.8896
 9183.5  0.8918
 9184.0  0.8941
 9184.5  0.8963
 9185.0  0.8986
 9185.5  0.9001
 9186.0  0.9016
 9186.5  0.9032
 9187.0  0.9047
 9187.5  0.9062
 9188.0  0.9080
 9188.5  0.9098
 9189.0  0.9116
 9189.5  0.9134
 9190.0  0.9152
 9190.5  0.9163
 9191.0  0.9174
 9191.5  0.9185
 9192.0  0.9196
 9192.5  0.9207
 9193.0  0.9226
 9193.5  0.9245
 9194.0  0.9264
 9194.5  0.9283
 9195.0  0.9303
 9195.5  0.9305
 9196.0  0.9306
 9196.5  0.9309
 9197.0  0.9311
 9197.5  0.9312
 9198.0  0.9312
 9198.5  0.9314
 9199.0  0.9316
 9199.5  0.9319
 9200.0  0.9321
 9200.5  0.9333
 9201.0  0.9344
 9201.5  0.9356
 9202.0  0.9368
 9202.5  0.9379
 9203.0  0.9364
 9203.5  0.9348
 9204.0  0.9332
 9204.5  0.9316
 9205.0  0.9301
 9205.5  0.9307
 9206.0  0.9314
 9206.5  0.9320
 9207.0  0.9327
 9207.5  0.9333
 9208.0  0.9337
 9208.5  0.9341
 9209.0  0.9345
 9209.5  0.9349
 9210.0  0.9353
 9210.5  0.9350
 9211.0  0.9348
 9211.5  0.9345
 9212.0  0.9343
 9212.5  0.9340
 9213.0  0.9339
 9213.5  0.9339
 9214.0  0.9338
 9214.5  0.9337
 9215.0  0.9337
 9215.5  0.9334
 9216.0  0.9332
 9216.5  0.9329
 9217.0  0.9327
 9217.5  0.9325
 9218.0  0.9325
 9218.5  0.9325
 9219.0  0.9325
 9219.5  0.9325
 9220.0  0.9325
 9220.5  0.9317
 9221.0  0.9309
 9221.5  0.9301
 9222.0  0.9293
 9222.5  0.9285
 9223.0  0.9287
 9223.5  0.9289
 9224.0  0.9291
 9224.5  0.9292
 9225.0  0.9294
 9225.5  0.9290
 9226.0  0.9285
 9226.5  0.9281
 9227.0  0.9276
 9227.5  0.9272
 9228.0  0.9265
 9228.5  0.9257
 9229.0  0.9250
 9229.5  0.9243
 9230.0  0.9236
 9230.5  0.9228
 9231.0  0.9221
 9231.5  0.9214
 9232.0  0.9207
 9232.5  0.9200
 9233.0  0.9192
 9233.5  0.9185
 9234.0  0.9177
 9234.5  0.9169
 9235.0  0.9162
 9235.5  0.9155
 9236.0  0.9148
 9236.5  0.9142
 9237.0  0.9135
 9237.5  0.9128
 9238.0  0.9105
 9238.5  0.9082
 9239.0  0.9058
 9239.5  0.9035
 9240.0  0.9012
 9240.5  0.8993
 9241.0  0.8974
 9241.5  0.8955
 9242.0  0.8936
 9242.5  0.8916
 9243.0  0.8887
 9243.5  0.8857
 9244.0  0.8827
 9244.5  0.8798
 9245.0  0.8768
 9245.5  0.8741
 9246.0  0.8713
 9246.5  0.8686
 9247.0  0.8659
 9247.5  0.8631
 9248.0  0.8606
 9248.5  0.8579
 9249.0  0.8553
 9249.5  0.8527
 9250.0  0.8501
 9250.5  0.8459
 9251.0  0.8418
 9251.5  0.8376
 9252.0  0.8335
 9252.5  0.8293
 9253.0  0.8249
 9253.5  0.8205
 9254.0  0.8160
 9254.5  0.8116
 9255.0  0.8071
 9255.5  0.8021
 9256.0  0.7971
 9256.5  0.7921
 9257.0  0.7872
 9257.5  0.7822
 9258.0  0.7766
 9258.5  0.7711
 9259.0  0.7655
 9259.5  0.7600
 9260.0  0.7544
 9260.5  0.7489
 9261.0  0.7434
 9261.5  0.7379
 9262.0  0.7325
 9262.5  0.7270
 9263.0  0.7207
 9263.5  0.7145
 9264.0  0.7082
 9264.5  0.7020
 9265.0  0.6958
 9265.5  0.6901
 9266.0  0.6845
 9266.5  0.6788
 9267.0  0.6731
 9267.5  0.6674
 9268.0  0.6611
 9268.5  0.6548
 9269.0  0.6485
 9269.5  0.6422
 9270.0  0.6359
 9270.5  0.6293
 9271.0  0.6227
 9271.5  0.6161
 9272.0  0.6096
 9272.5  0.6030
 9273.0  0.5962
 9273.5  0.5895
 9274.0  0.5828
 9274.5  0.5761
 9275.0  0.5694
 9275.5  0.5622
 9276.0  0.5551
 9276.5  0.5479
 9277.0  0.5408
 9277.5  0.5337
 9278.0  0.5265
 9278.5  0.5194
 9279.0  0.5123
 9279.5  0.5051
 9280.0  0.4980
 9280.5  0.4905
 9281.0  0.4829
 9281.5  0.4754
 9282.0  0.4679
 9282.5  0.4604
 9283.0  0.4531
 9283.5  0.4457
 9284.0  0.4384
 9284.5  0.4310
 9285.0  0.4237
 9285.5  0.4170
 9286.0  0.4103
 9286.5  0.4037
 9287.0  0.3970
 9287.5  0.3904
 9288.0  0.3833
 9288.5  0.3762
 9289.0  0.3692
 9289.5  0.3621
 9290.0  0.3549
 9290.5  0.3481
 9291.0  0.3413
 9291.5  0.3345
 9292.0  0.3278
 9292.5  0.3210
 9293.0  0.3144
 9293.5  0.3078
 9294.0  0.3012
 9294.5  0.2946
 9295.0  0.2880
 9295.5  0.2816
 9296.0  0.2752
 9296.5  0.2687
 9297.0  0.2623
 9297.5  0.2559
 9298.0  0.2499
 9298.5  0.2439
 9299.0  0.2379
 9299.5  0.2319
 9300.0  0.2259
 9300.5  0.2203
 9301.0  0.2147
 9301.5  0.2091
 9302.0  0.2035
 9302.5  0.1979
 9303.0  0.1923
 9303.5  0.1868
 9304.0  0.1813
 9304.5  0.1758
 9305.0  0.1703
 9305.5  0.1657
 9306.0  0.1610
 9306.5  0.1564
 9307.0  0.1517
 9307.5  0.1471
 9308.0  0.1428
 9308.5  0.1384
 9309.0  0.1341
 9309.5  0.1298
 9310.0  0.1254
 9310.5  0.1215
 9311.0  0.1176
 9311.5  0.1137
 9312.0  0.1098
 9312.5  0.1060
 9313.0  0.1027
 9313.5  0.0994
 9314.0  0.0961
 9314.5  0.0928
 9315.0  0.0895
 9315.5  0.0867
 9316.0  0.0839
 9316.5  0.0811
 9317.0  0.0783
 9317.5  0.0755
 9318.0  0.0729
 9318.5  0.0703
 9319.0  0.0678
 9319.5  0.0651
 9320.0  0.0626
 9320.5  0.0605
 9321.0  0.0584
 9321.5  0.0563
 9322.0  0.0543
 9322.5  0.0522
 9323.0  0.0503
 9323.5  0.0484
 9324.0  0.0464
 9324.5  0.0445
 9325.0  0.0426
 9325.5  0.0412
 9326.0  0.0398
 9326.5  0.0385
 9327.0  0.0371
 9327.5  0.0358
 9328.0  0.0348
 9328.5  0.0337
 9329.0  0.0327
 9329.5  0.0317
 9330.0  0.0307
 9330.5  0.0295
 9331.0  0.0284
 9331.5  0.0273
 9332.0  0.0262
 9332.5  0.0251
 9333.0  0.0243
 9333.5  0.0236
 9334.0  0.0228
 9334.5  0.0220
 9335.0  0.0213
 9335.5  0.0206
 9336.0  0.0199
 9336.5  0.0192
 9337.0  0.0186
 9337.5  0.0180
 9338.0  0.0174
 9338.5  0.0169
 9339.0  0.0163
 9339.5  0.0158
 9340.0  0.0153
 9340.5  0.0148
 9341.0  0.0142
 9341.5  0.0137
 9342.0  0.0132
 9342.5  0.0128
 9343.0  0.0122
 9343.5  0.0118
 9344.0  0.0114
 9344.5  0.0110
 9345.0  0.0106
 9345.5  0.0103
 9346.0  0.0099
 9346.5  0.0096
 9347.0  0.0094
 9347.5  0.0092
 9348.0  0.0088
 9348.5  0.0086
 9349.0  0.0083
 9349.5  0.0081
 9350.0  0.0079
 9350.5  0.0077
 9351.0  0.0075
 9351.5  0.0074
 9352.0  0.0073
 9352.5  0.0072
 9353.0  0.0069
 9353.5  0.0065
 9354.0  0.0062
 9354.5  0.0059
 9355.0  0.0057
 9355.5  0.0055
 9356.0  0.0054
 9356.5  0.0054
 9357.0  0.0054
 9357.5  0.0054
 9358.0  0.0052
 9358.5  0.0050
 9359.0  0.0049
 9359.5  0.0048
 9360.0  0.0048
 9360.5  0.0046
 9361.0  0.0043
 9361.5  0.0042
 9362.0  0.0041
 9362.5  0.0041
 9363.0  0.0039
 9363.5  0.0038
 9364.0  0.0038
 9364.5  0.0038
 9365.0  0.0039
 9365.5  0.0037
 9366.0  0.0035
 9366.5  0.0034
 9367.0  0.0034
 9367.5  0.0035
 9368.0  0.0033
 9368.5  0.0031
 9369.0  0.0031
 9369.5  0.0031
 9370.0  0.0032
 9370.5  0.0031
 9371.0  0.0030
 9371.5  0.0029
 9372.0  0.0029
 9372.5  0.0031
 9373.0  0.0027
 9373.5  0.0025
 9374.0  0.0023
 9374.5  0.0023
 9375.0  0.0023
 9375.5  0.0021
 9376.0  0.0020
 9376.5  0.0019
 9377.0  0.0020
 9377.5  0.0020
 9378.0  0.0019
 9378.5  0.0018
 9379.0  0.0018
 9379.5  0.0020
 9380.0  0.0021
 9380.5  0.0020
 9381.0  0.0020
 9381.5  0.0020
 9382.0  0.0021
 9382.5  0.0023
 9383.0  0.0021
 9383.5  0.0019
 9384.0  0.0019
 9384.5  0.0019
 9385.0  0.0020
 9385.5  0.0018
 9386.0  0.0017
 9386.5  0.0016
 9387.0  0.0017
 9387.5  0.0018
 9388.0  0.0016
 9388.5  0.0015
 9389.0  0.0014
 9389.5  0.0015
 9390.0  0.0016
 9390.5  0.0015
 9391.0  0.0014
 9391.5  0.0015
 9392.0  0.0017
 9392.5  0.0019
 9393.0  0.0016
 9393.5  0.0015
 9394.0  0.0014
 9394.5  0.0014
 9395.0  0.0016
 9395.5  0.0015
 9396.0  0.0014
 9396.5  0.0015
 9397.0  0.0017
 9397.5  0.0019
 9398.0  0.0017
 9398.5  0.0016
 9399.0  0.0015
 9399.5  0.0016
 9400.0  0.0017
 9400.5  0.0015
 9401.0  0.0014
 9401.5  0.0013
 9402.0  0.0013
 9402.5  0.0014
 9403.0  0.0013
 9403.5  0.0013
 9404.0  0.0014
 9404.5  0.0015
 9405.0  0.0017
 9405.5  0.0017
 9406.0  0.0017
 9406.5  0.0018
 9407.0  0.0020
 9407.5  0.0023
 9408.0  0.0020
 9408.5  0.0018
 9409.0  0.0017
 9409.5  0.0017
 9410.0  0.0018
 9410.5  0.0016
 9411.0  0.0014
 9411.5  0.0014
 9412.0  0.0016
 9412.5  0.0018
 9413.0  0.0015
 9413.5  0.0014
 9414.0  0.0013
 9414.5  0.0014
 9415.0  0.0016
 9415.5  0.0014
 9416.0  0.0012
 9416.5  0.0012
 9417.0  0.0013
 9417.5  0.0014
 9418.0  0.0012
 9418.5  0.0010
 9419.0  0.0010
 9419.5  0.0010
 9420.0  0.0011
 9420.5  0.0011
 9421.0  0.0011
 9421.5  0.0012
 9422.0  0.0014
 9422.5  0.0017
 9423.0  0.0014
 9423.5  0.0012
 9424.0  0.0010
 9424.5  0.0010
 9425.0  0.0011
 9425.5  0.0009
 9426.0  0.0009
 9426.5  0.0010
 9427.0  0.0012
 9427.5  0.0014
 9428.0  0.0012
 9428.5  0.0010
 9429.0  0.0010
 9429.5  0.0011
 9430.0  0.0013
 9430.5  0.0010
 9431.0  0.0009
 9431.5  0.0009
 9432.0  0.0011
 9432.5  0.0013
 9433.0  0.0011
 9433.5  0.0010
 9434.0  0.0010
 9434.5  0.0011
 9435.0  0.0014
 9435.5  0.0012
 9436.0  0.0011
 9436.5  0.0010
 9437.0  0.0011
 9437.5  0.0013
 9438.0  0.0010
 9438.5  0.0009
 9439.0  0.0008
 9439.5  0.0008
 9440.0  0.0010
 9440.5  0.0009
 9441.0  0.0009
 9441.5  0.0010
 9442.0  0.0012
 9442.5  0.0014
 9443.0  0.0012
 9443.5  0.0010
 9444.0  0.0010
 9444.5  0.0011
 9445.0  0.0013
 9445.5  0.0010
 9446.0  0.0009
 9446.5  0.0008
 9447.0  0.0009
 9447.5  0.0009
 9448.0  0.0007
 9448.5  0.0006
 9449.0  0.0006
 9449.5  0.0007
 9450.0  0.0009
 9450.5  0.0007
 9451.0  0.0006
 9451.5  0.0005
 9452.0  0.0006
 9452.5  0.0006
 9453.0  0.0005
 9453.5  0.0004
 9454.0  0.0004
 9454.5  0.0005
 9455.0  0.0007
 9455.5  0.0006
 9456.0  0.0005
 9456.5  0.0005
 9457.0  0.0005
 9457.5  0.0007
 9458.0  0.0005
 9458.5  0.0005
 9459.0  0.0004
 9459.5  0.0005
 9460.0  0.0006
 9460.5  0.0005
 9461.0  0.0004
 9461.5  0.0004
 9462.0  0.0005
 9462.5  0.0007
 9463.0  0.0005
 9463.5  0.0004
 9464.0  0.0004
 9464.5  0.0004
 9465.0  0.0005
 9465.5  0.0004
 9466.0  0.0004
 9466.5  0.0004
 9467.0  0.0005
 9467.5  0.0006
 9468.0  0.0006
 9468.5  0.0005
 9469.0  0.0005
 9469.5  0.0006
 9470.0  0.0007
 9470.5  0.0006
 9471.0  0.0006
 9471.5  0.0006
 9472.0  0.0008
 9472.5  0.0009
 9473.0  0.0008
 9473.5  0.0008
 9474.0  0.0008
 9474.5  0.0009
 9475.0  0.0010
 9475.5  0.0008
 9476.0  0.0007
 9476.5  0.0007
 9477.0  0.0007
 9477.5  0.0008
 9478.0  0.0006
 9478.5  0.0005
 9479.0  0.0004
 9479.5  0.0005
 9480.0  0.0005
 9480.5  0.0004
 9481.0  0.0004
 9481.5  0.0004
 9482.0  0.0004
 9482.5  0.0005
 9483.0  0.0004
 9483.5  0.0004
 9484.0  0.0004
 9484.5  0.0005
 9485.0  0.0006
 9485.5  0.0005
 9486.0  0.0004
 9486.5  0.0004
 9487.0  0.0005
 9487.5  0.0005
 9488.0  0.0005
 9488.5  0.0004
 9489.0  0.0004
 9489.5  0.0005
 9490.0  0.0005
 9490.5  0.0004
 9491.0  0.0004
 9491.5  0.0004
 9492.0  0.0004
 9492.5  0.0005
 9493.0  0.0004
 9493.5  0.0004
 9494.0  0.0004
 9494.5  0.0005
 9495.0  0.0006
 9495.5  0.0005
 9496.0  0.0004
 9496.5  0.0004
 9497.0  0.0004
 9497.5  0.0004
 9498.0  0.0003
 9498.5  0.0002
 9499.0  0.0002
 9499.5  0.0003
 9500.0  0.0004
